Folder: concrete_ML/Datasets

Note: README.md
Worksheet.ipynb contains the jupyter notebook utilized for training 7 ML models out of which the best model was selected based on hypertuning results using GridCV.
XGBoost had the highest accuracy closely followed by GBDT therefore XGBoost models were trained and hypertuned using Bayesian Optimization
The code written can be utilized for any dataset that you choose after necessary amendments. The jupyter notebook is annotated and segmented for easier understanding and amendments if required.
A preliminary SHAP analysis was done of the parameters involved and can be expanded according to SHAPley documentation if required.

File: Materials 1645501 DataSheet.csv
Ref,Eff Water Cement Ratio,Aggregate Cement Ratio,RCA %,Parent Concrete Strength,Nominal Maximum RCA Size,Nominal Max NA Size,Density RCA,Density NA,Water Absorption RCA,Water Absorption NA,Compressive Strength (Mpa),Flexural Strength (Mpa)
0,0.5,2.5,20,0,20,20,0,0,0,0,42.7,0
0,0.45,3.3,50,0,20,30,2400,2610,4.9,2.5,50.8,4.9
0,0.39,2.6,100,0,20,30,2400,0,4.9,0,60.2,6
0,0.36,2.3,100,41.6,16,16,0,0,0,0,44.5,0
0,0.36,2.3,100,63.2,16,16,0,0,0,0,52.5,0
0,0.36,2.3,100,66,16,16,0,0,0,0,49.6,0
0,0.47,2.5,15,38.4,20,20,2410,2590,5.8,0.9,38.1,0
0,0.6,4.1,100,0,15,20,2450,0,5.6,0,38.2,0
0,0.45,3.1,50,0,15,20,2450,0,5.6,0,59.4,0
0,0.57,3.1,20,0,20,32,2330,2620,6.3,1.3,43.2,0
0,0.57,2.7,50,0,20,20,2330,2620,6.3,1.3,38.1,0
0,0.7,3.3,100,0,25,20,0,0,0,0,27.7,0
0,0.43,2.8,72,0,32,19,2520,2820,9.3,0.4,30.3,0
0,0.38,2,70,0,32,32,2442,2786,6,0.3,36.7,5.1
0,0.5,3.5,100,0,25,19,2430,0,4.4,0,40,0
0,0.42,3.2,10,0,20,25,2165,2564,6.8,0.8,62.2,0
0,0.45,4.4,100,0,20,25,2165,0,6.8,0,61,0
0,0.45,2.5,100,0,20,20,2570,0,3.5,0,37.1,0
0,0.36,2.3,100,0,16,25,2780,0,0,0,60.2,0
0,0.38,3.2,50,0,32,22,2449,2788,6,0.3,29.3,4.4
0,0.45,2.7,50,0,20,19,2570,2620,3.5,1.1,55.8,0
0,0.55,2.5,100,0,20,32,2570,0,3.5,0,38.1,0
0,0.43,2.6,100,0,19,25,2390,0,4.4,0,28.7,0
0,0.31,2.7,100,0,32,32,2512,0,6.3,0,30.2,0
0,0.67,3.9,100,0,30,10,2520,0,3.8,0,18,0
0,0.34,1.9,100,0,30,19,2520,0,3.8,0,44.4,0
0,0.36,3.1,70,0,32,22,2449,2788,6,0.3,28.4,4.4
0,0.55,2.5,100,0,20,20,2580,0,3.5,0,38.1,0
0,0.45,2.8,20,0,20,20,2580,2620,3.5,1.1,62.4,0
0,0.4,2.8,50,0,20,20,2580,2620,3.5,1.1,65.3,0
0,0.5,2.8,100,0,25,32,2530,0,1.9,0,36,3.5
0,0.52,3.2,50,0,32,22,2720,2970,4.8,0.8,41.4,0
0,0.52,3.2,50,0,32,22,2880,2970,4.4,0.8,41.2,0
0,0.32,2.3,100,0,20,20,2338,0,5.2,0,54.8,0
0,0.52,2.8,40,0,22,20,0,0,0,0,48,0
0,0.54,3.1,100,0,22,20,0,0,0,0,20.5,3.1
0,0.76,4.5,100,0,30,32,0,0,0,0,23.5,0
0,0.66,3.9,100,0,30,32,0,0,0,0,25.7,0
0,0.66,3.9,100,0,30,32,0,0,0,0,26.1,0
0,0.57,3.3,100,0,30,32,0,0,0,0,30.5,0
0,0.48,2.7,100,0,30,30,0,0,0,0,35.3,0
0,0.41,2.2,100,0,30,30,0,0,0,0,41.9,0
0,0.35,3.1,100,0,32,32,2512,0,6.3,0,24.6,4.2
0,0.24,3,100,0,32,32,2512,0,6.3,0,35.5,5
0,0.5,3.2,50,0,12,30,2400,2570,6.8,3,38.1,0
0,0.45,3.1,50,0,22,30,2420,2570,8.8,3,45.8,0
0,0.5,3.5,20,0,20,20,2400,2870,0,0,27.2,3.9
0,0.5,3.5,100,0,20,20,2400,0,0,0,20.4,2.4
0,0.5,4.8,80,0,20,20,2630,2870,0,0,15.4,3.4
0,0.65,3.1,50,0,19,20,2440,2720,5.8,0.2,18,0
0,0.42,2.5,75,0,19,20,2440,2720,5.8,0.2,34,0
0,0.51,2.5,20,0,16,20,2400,2730,5,2.5,43.7,0
0,0.45,2.3,100,0,19,25,2420,2740,5.4,0,43.9,0
0,0.65,3.1,50,0,16,20,2400,2720,5,2,32.4,0
0,0.5,2.1,100,0,16,20,2400,0,5,0,40.5,0
0,0.45,2.3,100,0,19,25,2490,0,4.8,0,41,0
0,0.6,4.5,50,0,19,20,0,0,0,0,21.5,0
0,0.45,2.5,50,0,19,20,0,0,0,0,37,0
0,0.43,3,100,42.7,25,16,2570,0,2.9,0,43.3,0
0,0.49,5.1,100,0,32,15,2283,0,4.2,0,35.6,4.8
0,0.46,5.9,60,0,32,15,2518,2650,2.7,0.2,54.3,5.9
0,0.49,2.8,50,0,32,32,0,0,0,0,30.6,0
0,0.58,4,100,0,20,22,2340,0,5.3,0,18,0
0,0.5,3.5,30,0,20,22,2340,2510,5.3,1.4,25,0
0,0.44,3.1,50,0,20,22,2340,2510,5.3,1.4,31,0
0,0.47,2.7,100,0,32,25,2273,0,2,0,48.1,0
0,0.46,4.6,100,37.3,12,20,2010,0,10.9,0,38.6,0
0,0.68,4.8,100,37.3,12,20,2010,0,10.9,0,45.1,0
0,0.53,5,100,37.3,12,20,2010,0,10.9,0,63,0
0,0.45,3.1,20,41.4,20,22,2451,2581,7.3,1.2,64.7,0
0,0.4,3.2,50,41.4,20,22,2451,2581,7.3,1.2,63.8,0
0,0.29,2.6,100,0,10,20,2220,0,7.8,0,39.3,5.2
[46],0.52,3,100,0,25,20,2490,0,4.9,0,37.6,0
0,0.52,3.2,53,0,32,16,2720,2970,4.8,0.8,41.4,0
0,0.52,3.2,53,0,32,25,2880,2970,4.4,0.8,41.2,0
0,0.41,1.7,45,0,20,32,2330,2600,4.4,0.7,44.6,0
0,0.41,1.7,45,0,20,32,2370,2600,4,0.7,54.4,0
0,0.41,1.7,45,0,20,20,2390,2600,3.6,0.7,56.9,0
0,0.41,1.7,45,0,20,20,2320,2600,4.6,0.7,45.8,0
0,0.41,1.7,45,0,20,20,2390,2600,3.7,0.7,49.5,0
0,0.41,1.7,45,0,20,20,2390,2600,3.5,0.7,51.4,0
0,0.41,1.7,45,0,20,20,2380,2600,3.8,0.7,52.6,0
0,0.41,1.7,45,0,20,20,2380,2600,3.8,0.7,50.3,0
0,0.41,1.7,45,0,20,20,2400,2600,3.5,0.7,50,0
0,0.41,1.7,45,0,20,20,2370,2600,4,0.7,53.7,0
0,0.48,5,37,36,25,20,2250,2570,7,1.2,44.7,4.8
0,0.5,2.4,100,0,25,32,2452,0,4.1,0,48,0
0,0.5,2.5,25,0,25,32,2452,2652,4.1,0.8,52,0
0,0.28,2,100,0,25,38,2260,0,7.5,0,32.9,5.9
0,0.28,2.4,100,0,25,38,2260,0,7.5,0,28,5.1
0,0.49,3.5,100,0,25,25,2260,0,7.5,0,21.6,5.3
0,0.59,4.2,100,0,25,25,2260,0,7.5,0,13.4,4
0,0.54,3,100,0,20,20,2320,0,5.3,0,45,0
0,0.68,3.4,20,0,20,19,2320,2540,5.3,1.8,33.5,0
0,0.53,2.2,50,0,20,19,2320,2540,5.3,1.8,41,0
0,0.58,2.8,100,0,20,20,2320,0,5.3,0,33.5,0
[53],0.42,2.6,50,0,20,19,2330,2590,6.1,1.2,41.6,0
0,0.44,2.6,50,0,20,19,2320,2590,5.8,1.2,44.6,0
0,0.42,2.6,50,0,20,20,2360,2590,3.9,1.2,45.1,0
0,0.54,2.3,100,0,20,20,2360,0,3.9,0,37.7,0
0,0.51,2.8,20,0,20,20,2350,2590,4.5,1.2,42.7,0
0,0.42,2.6,50,0,20,20,2350,2590,4.7,1.2,45.4,0
0,0.56,2.3,100,0,20,20,2350,0,4.7,0,31.2,0
0,0.31,2.6,100,0,32,20,2578,0,9.3,0,38.9,0
0,0.47,3.5,100,0,20,25,2273,0,3.6,0,41.6,0
0,0.29,2.8,20,60,10,10,2390,2680,4.9,2.1,102.5,8
0,0.29,2.7,50,40,10,10,2300,2680,5.9,2.1,96.8,6.8
0,0.65,4.8,75,0,20,30,2380,2680,6.94,1.53,14.2,1.9
0,0.45,2.5,40,0,16,20,2380,2680,6.94,1.53,40.9,2.7
0,0.5,2.6,20,0,16,20,2380,2680,6.9,1.9,51.6,5.1
0,0.5,3.4,50,0,22,22,2380,2670,0,0,46.4,0
0,0.5,3.2,50,0,8,20,2280,0,4.1,0,29.1,0
0,0.51,3.1,100,0,20,20,2450,0,3.1,0,47.6,0
0,0.44,2.3,100,0,20,20,2370,0,7.1,0,53.7,0
0,0.34,2,100,0,20,20,2360,0,7.8,0,65.4,0
0,0.65,3.2,20,0,20,19,2300,2500,5.2,1.7,39.5,0
0,0.65,3.1,50,0,20,19,2300,2500,5.5,1.7,38.8,0
0,0.36,2.7,52,0,25,20,2200,2570,5.4,1.1,29,8.9
0,0.86,4.6,100,0,22,20,2456,0,7.5,0,21.8,0
0,0.63,3.5,100,0,22,20,2484,0,5.4,0,41.1,0
0,0.42,2.9,100,0,22,22,2464,0,3.9,0,66.5,0
0,0.57,3.3,50,0,19,19,2320,2730,5.3,0.5,47.5,0
0,0.42,2.3,100,0,19,19,2320,0,5.3,0,65.1,0
0,0.53,2.5,20,0,19,19,2320,2730,5.3,0.5,54.9,0
0,0.54,3,50,0,19,19,2320,2730,5.3,0.5,48.9,0
0,0.49,2.5,100,0,19,19,2320,0,5.3,0,53.7,0
0,0.36,2.64,30,0,20,0,2400,0,4.9,0,60.8,0
0,0.29,2.17,50,0,20,0,2400,0,4.9,0,70.8,0
0,0.52,2.39,60,0,20,0,2410,0,5.8,0,35.8,0
0,0.68,2.81,100,0,20,0,2330,0,6.3,0,46.8,0
0,0.58,3.06,20,0,20,0,2330,0,6.3,0,43,0
0,0.5,3.46,100,0,25,0,2430,0,4.4,0,40,0
0,0.46,3.73,18,0,20,0,2165,0,6.8,0,60.8,0
0,0.55,2.5,79,0,20,0,2570,0,3.5,0,39.2,0
0,0.45,2.69,100,0,20,0,2570,0,3.5,0,42,0
0,0.65,3.06,100,0,19,0,2390,0,4.4,0,22.1,0
0,0.4,2.39,100,0,19,0,2390,0,4.4,0,29.5,0
0,0.36,2.34,100,0,30,0,2510,0,3.9,0,35.7,0
0,0.55,2.48,100,0,20,0,2580,0,3.5,0,38.1,0
0,0.45,2.75,20,0,20,0,2580,0,3.5,0,62.4,0
0,0.4,2.81,49,0,20,0,2580,0,3.5,0,65.3,0
0,0.5,2.83,100,0,25,0,2530,0,1.9,0,36,0
0,0.5,2.48,50,0,20,0,2338,0,5.2,0,47.3,0
0,0.5,3.18,52,0,12,0,2400,0,6.8,0,38.1,0
0,0.45,3.13,49,0,22,0,2420,0,8.8,0,45.8,0
0,0.74,3.24,23,0,19,0,2440,0,5.8,0,18.5,0
0,0.45,2.59,47,0,19,0,2440,0,5.8,0,34.5,0
0,0.65,2.75,100,0,16,0,2400,0,5,0,30.1,0
0,0.45,3.39,63,0,19,0,2420,0,5.4,0,41.4,0
0,0.45,3.12,52,0,12,0,2400,0,6.8,0,39.6,0
0,0.4,3.07,49,0,22,0,2420,0,8.8,0,46.1,0
0,0.6,3.33,49,0,22,0,2420,0,8.8,0,34.7,0
0,0.45,2.68,23,0,19,0,2440,0,5.8,0,33,0
0,0.65,3.08,50,0,16,0,2400,0,5,0,32.4,0
0,0.5,2.13,100,0,16,0,2400,0,5,0,40.5,0
0,0.45,2.48,100,0,19,0,2500,0,3.3,0,45.9,0
0,0.55,3.52,14,0,12,0,2010,0,10.9,0,38.6,0
0,0.47,3.66,14,0,12,0,2010,0,10.9,0,51,0
0,0.4,3.79,14,0,12,0,2010,0,10.9,0,65.4,0
0,0.58,3.14,100,0,10,0,2280,0,6.2,0,38.1,0
0,0.3,1.47,100,0,10,0,2220,0,7.8,0,62.8,0
0,0.41,1.71,60,0,20,0,2330,0,4.4,0,42.4,0
0,0.41,1.71,60,0,20,0,2370,0,4,0,40.6,0
0,0.41,1.71,60,0,20,0,2390,0,3.6,0,54.7,0
0,0.41,1.71,60,0,20,0,2320,0,4.6,0,40,0
0,0.41,1.71,60,0,20,0,2390,0,3.7,0,40.4,0
0,0.41,1.71,60,0,20,0,2390,0,3.5,0,53.2,0
0,0.41,1.71,60,0,20,0,2380,0,3.8,0,48,0
0,0.41,1.71,60,0,20,0,2380,0,3.8,0,47.5,0
0,0.41,1.71,60,0,20,0,2400,0,3.5,0,43.3,0
0,0.41,1.71,60,0,20,0,2370,0,4,0,46,0
0,0.5,2.5,48,0,25,0,2452,0,4.1,0,51,0
0,0.5,2.54,23,0,25,0,2452,0,4.1,0,50,0
0,0.23,2,100,0,25,0,2260,0,7.5,0,33.2,0
0,0.43,3.1,100,0,25,0,2260,0,7.5,0,26.5,0
0,0.49,3.5,100,0,25,0,2260,0,7.5,0,18,0
0,0.48,4.2,100,0,25,0,2260,0,7.5,0,13.9,0
0,0.5,2.49,20,0,20,0,2320,0,5.3,0,50.5,0
0,0.65,2.97,50,0,20,0,2320,0,5.3,0,32,0
0,0.5,1.8,100,0,20,0,2320,0,5.3,0,41.5,0
0,0.45,2.9,20,0,20,0,2320,0,5.3,0,53.5,0
0,0.51,2.28,100,0,20,0,2330,0,6.1,0,31.4,0
0,0.51,2.28,100,0,20,0,2320,0,5.8,0,36.7,0
0,0.45,2.28,100,0,20,0,2360,0,3.9,0,42.9,0
0,0.42,2.77,20,0,20,0,2350,0,4.5,0,48.1,0
0,0.52,2.58,50,0,20,0,2350,0,4.5,0,35.4,0
0,0.43,2.28,100,0,20,0,2350,0,4.7,0,37,0
0,0.47,3.7,19,0,20,0,2336,0,3.6,0,50,0
0,0.6,3.36,50,0,16,0,2380,0,6.9,0,42.5,0
0,0.5,2.41,100,0,16,0,2380,0,6.9,0,50.3,0
0,0.51,3.11,100,0,20,0,2450,0,3.1,0,47.6,0
0,0.44,2.31,100,0,20,0,2370,0,7.1,0,53.7,0
0,0.34,2.02,100,0,20,0,2360,0,7.8,0,65.4,0
0,0.65,3.15,20,0,20,0,2300,0,5.2,0,39.5,0
0,0.65,3,50,0,20,0,2300,0,5.5,0,38.8,0
0,0.46,2.78,100,0,22,0,2362,0,4.2,0,66.8,0
0,0.99,4.54,100,0,22,0,2401,0,7.6,0,21,0
0,0.68,3.44,100,0,22,0,2458,0,5.8,0,39.7,0
0,0.65,3.02,100,0,19,0,2320,0,5.3,0,53.7,0
0,0.5,2.85,100,0,19,0,2570,0,2.7,0,29.1,0
0,0.65,3.05,20,0,20,0,2300,0,5.5,0,41,0
0,0.7,3.36,100,0,22,0,2387,0,6.9,0,35.7,0
0,0.45,2.94,100,0,22,0,2496,0,4.2,0,68.5,0
0,0.98,4.65,100,0,22,0,2447,0,6.9,0,23.6,0
0,0.65,3.31,50,0,19,0,2320,0,5.3,0,47.5,0
0,0.65,3.02,100,0,19,0,2320,0,5.3,0,53.7,0