Folder: concrete_ML/Saved Copy Of Datasets

Note: README.md
Worksheet.ipynb contains the jupyter notebook utilized for training 7 ML models out of which the best model was selected based on hypertuning results using GridCV.
XGBoost had the highest accuracy closely followed by GBDT therefore XGBoost models were trained and hypertuned using Bayesian Optimization
The code written can be utilized for any dataset that you choose after necessary amendments. The jupyter notebook is annotated and segmented for easier understanding and amendments if required.
A preliminary SHAP analysis was done of the parameters involved and can be expanded according to SHAPley documentation if required.

File: Materials 1645501 DataSheetold.csv
Ref,Eff Water Cement Ratio,Aggregate Cement Ratio,RCA %,Nominal Maximum RCA Size,Nominal Max NA Size,Density RCA,Density NA,Water Absorption RCA,Water Absorption NA,Compressive Strength (Mpa),Flexural Strength (Mpa)
[1],0.5,2.6,0,20,20,0,0,0,0,42.8,0
,0.5,2.3,100,20,20,0,0,0,0,41.8,0
,0.45,3.3,50,20,30,2400,2610,4.9,2.5,50.8,4.9
,0.39,2.6,30,20,30,2400,2610,4.9,2.5,60.8,6.1
,0.29,2.2,0,20,30,0,2610,0,2.5,70.5,7
,0.29,2.2,100,20,30,2400,0,4.9,0,70,7.2
,0.36,2.2,100,16,16,0,0,0,0,38.7,0
,0.36,2.2,100,16,16,0,0,0,0,42.4,0
,0.36,2.2,100,16,16,0,0,0,0,50.7,0
,0.36,2.2,100,16,16,0,0,0,0,42,0
,0.36,2.2,100,16,16,0,0,0,0,45.1,0
,0.36,2.3,100,16,16,0,0,0,0,48.2,0
,0.45,2.5,30,20,20,2410,2590,5.8,0.9,37,0
[5],0.6,4.6,0,15,20,0,2670,0,0.5,43.5,0
,0.45,2.9,100,15,20,2450,0,5.6,0,52.8,0
,0.45,3.2,25,15,20,0,2670,0,0.5,60.7,0
,0.57,3.1,20,20,25,2330,2620,6.3,1.3,44.9,0
,0.57,3,0,20,32,0,2620,0,1.3,40.2,0
,0.57,2.9,100,20,32,2330,0,6.3,0,43.3,0
,0.57,2.7,50,20,20,2330,2620,6.3,1.3,38.1,0
,0.5,2.3,100,25,20,0,0,0,0,36.2,0
[8],0.43,3,0,32,19,0,2820,0,0.4,35.9,0
,0.43,2.8,72,32,19,2520,2820,9.3,0.4,30.3,0
,0.37,2.9,30,32,32,2442,2786,6,0.3,37.2,5
,0.27,2.7,100,32,32,2442,0,6,0,35.2,4.9
,0.52,3.6,50,25,19,2430,2670,4.4,0.9,41,0
,0.55,3.9,25,25,19,2430,2670,4.5,0.9,38.8,0
[12],0.41,3.1,0,20,25,0,2564,0,0.8,59.4,0
,0.44,3.5,30,20,25,2165,2564,6.8,0.8,61.3,0
[13],0.51,2.6,0,20,20,0,2620,0,1.1,48.6,0
,0.46,2.5,80,20,20,2570,2620,3.5,1.1,39.2,0
,0.49,3.9,100,16,20,2270,0,0,0,34.6,0
,0.49,3.7,0,16,25,2780,0,0,0,39.8,0
,0.36,2.3,100,16,25,2780,0,0,0,60.2,0
,0.36,2.7,0,16,16,2565,0,0,0,61.8,0
,0.41,3.3,30,32,22,2449,2788,6,0.3,31,4.6
,0.32,3,100,32,22,2449,0,6,0,27.2,4.2
,0.45,2.7,50,20,19,2570,2620,3.5,1.1,55.8,0
,0.55,2.5,20,20,32,2570,2620,3.5,1.1,45.3,0
[17],0.65,3.1,0,19,25,0,2860,0,0.7,21.8,0
,0.5,2.9,100,19,25,2390,0,4.4,0,25.1,0
,0.43,2.6,0,19,25,0,2860,0,0.7,31.1,0
,0.4,2.4,100,19,19,2390,0,4.4,0,29.5,0
,0.49,3.1,100,32,25,2670,0,1.8,0,26.9,0
,0.43,2.7,100,32,32,2670,0,1.8,0,34.2,0
,0.39,2.4,100,32,32,2670,0,1.8,0,38.4,0
,0.67,3.9,100,30,10,2510,0,3.9,0,15.4,0
,0.36,2.1,100,30,10,2510,0,3.9,0,35.7,0
,0.34,2.2,100,30,30,2510,0,3.9,0,43.8,0
,0.38,3.2,50,32,22,2449,2788,6,0.3,29.3,4.4
[21],0.55,2.6,0,20,20,0,2620,0,1.1,48.6,0
,0.55,2.5,100,20,20,2580,0,3.5,0,38.1,0
,0.5,2.6,50,20,20,2580,2620,3.5,1.1,47.1,0
,0.45,2.8,20,20,20,2580,2620,3.5,1.1,62.4,0
,0.4,2.9,0,20,20,0,2620,0,1.1,72.3,0
,0.4,2.8,100,20,20,2580,0,3.5,0,58.5,0
,0.5,2.9,50,25,20,2530,2600,1.9,1.4,38,3.7
,0.5,2.8,50,25,32,2400,2600,6.2,1.4,30.4,3.4
,0.52,3.2,50,32,22,2720,2970,4.8,0.8,41.4,0
,0.46,3.2,100,32,22,2650,0,4.6,0,36.6,0
[24],0.41,2.6,0,20,20,0,2647,0,1,42.3,0
,0.32,2.3,100,20,20,2338,0,5.2,0,54.8,0
,0.52,2.8,20,22,20,0,0,0,0,47.7,0
,0.52,2.8,50,22,25,0,0,0,0,49.5,0
,0.54,3.1,25,22,25,0,0,0,0,21.6,2.9
,0.76,4.5,100,30,32,0,0,0,0,22,0
,0.76,4.5,100,30,32,0,0,0,0,20.4,0
,0.66,3.9,100,30,32,0,0,0,0,25.7,0
,0.66,3.9,100,30,32,0,0,0,0,27.5,0
,0.66,3.9,100,30,32,0,0,0,0,27.7,0
,0.57,3.3,100,30,30,0,0,0,0,32.7,0
,0.48,2.7,100,30,30,0,0,0,0,35.3,0
,0.48,2.7,100,30,30,0,0,0,0,33.8,0
,0.41,2.2,100,30,30,0,0,0,0,38.7,0
,0.35,3.1,100,32,32,2512,0,6.3,0,24.6,4.2
,0.27,3.3,100,32,32,2512,0,6.3,0,30.2,4.7
,0.24,3,100,32,32,2512,0,6.3,0,35.5,5
,0.45,3.1,50,12,30,2400,2570,6.8,3,39.6,0
,0.6,3.3,50,12,30,2400,2570,6.8,3,31.6,0
,0.5,3.2,50,22,30,2420,2570,8.8,3,39.9,0
[29],0.5,3.5,0,20,20,0,2870,0,0,28.3,4.9
,0.5,3.5,60,20,20,2400,2870,0,0,25.4,2.7
,0.5,3.8,20,20,20,2630,2870,0,0,26.4,4.4
,0.5,4.8,80,20,20,2630,2870,0,0,15.4,3.4
,0.62,3.6,100,32,20,2489,0,2.4,0,45.7,5.2
,0.65,3.1,50,19,20,2440,2720,5.8,0.2,18,0
,0.42,2.7,25,19,20,2440,2720,5.8,0.2,33,0
[32],0.65,3.4,0,16,20,0,2730,0,2.5,31.9,0
,0.68,2.8,100,16,20,2400,0,5,0,30.1,0
,0.53,2.3,50,16,20,2400,2730,5,2.5,37.5,0
,0.45,3.4,64,19,25,2420,2740,5.4,0.9,41.4,0
,0.45,3.1,64,19,25,2500,2740,3.3,0.9,44.8,0
,0.65,3.3,20,16,20,2400,2720,5,2,31.7,0
,0.5,2.6,0,16,20,0,2720,0,2,44.8,0
,0.5,2.1,100,16,20,2400,0,5,0,40.5,0
,0.43,2.9,50,20,20,2602,2620,2.6,1.1,46,4.4
,0.45,2.3,100,19,25,2490,0,4.8,0,41,0
,0.65,3.5,0,19,25,0,2730,0,0.45,30.4,0
,0.6,4.6,25,19,20,0,0,0,0,26.7,0
,0.6,4.4,100,19,20,0,0,0,0,20,0
,0.45,2.5,50,19,20,0,0,0,0,37,0
[38],0.49,3.1,0,25,16,0,2710,0,0.8,44.3,0
,0.36,2.9,100,25,16,2440,0,5.6,0,42.6,0
,0.43,5.4,100,32,15,2263,0,6,0,33.2,4.3
,0.6,5.3,100,32,15,2301,0,5,0,37.3,5.1
,0.44,5.8,60,32,15,2584,2650,1.6,0.2,54.4,6.4
,0.47,2.9,30,32,32,0,0,0,0,31.9,0
[41],0.66,4.6,0,20,22,0,2510,0,1.4,21,0
,0.58,4,100,20,22,2340,0,5.3,0,18,0
,0.51,3.5,50,20,22,2340,2510,5.3,1.4,24,0
,0.5,3.5,30,20,22,2340,2510,5.3,1.4,25,0
,0.48,3.3,0,20,22,0,2510,0,1.4,33,0
,0.42,2.9,100,20,22,2340,0,5.3,0,34,0
,0.52,3.6,0,32,20,0,2389,0,0,41.8,0
,0.47,2.7,100,32,25,2273,0,2,0,48.1,0
,0.57,3.5,30,12,20,2010,2720,10.9,0.6,38.6,0
,0.45,3.2,0,12,20,0,2720,0,0.6,53.3,0
,0.67,4,50,12,20,2010,2720,10.9,0.6,47.8,0
,0.7,3.4,10,12,20,2010,2720,10.9,0.6,64.6,0
,0.53,5,100,12,20,2010,0,10.9,0,63,0
,0.54,3,50,20,22,2451,2581,7.3,1.2,48.1,0
,0.45,3.1,20,20,22,2451,2581,7.3,1.2,64.7,0
,0.4,3.2,0,20,22,0,2581,0,1.2,78.7,0
,0.4,3.1,100,20,22,2451,0,7.3,0,62.8,0
,0.39,3.1,100,10,20,2280,0,6.2,0,38.1,5.2
,0.31,2.1,100,10,20,2360,0,4.7,0,60.1,5.8
[46],0.52,3,100,25,20,2490,0,4.9,0,37.6,0
,0.52,2.9,100,25,32,2470,0,5.3,0,44.7,0
,0.52,3.2,53,32,16,2720,2970,4.8,0.8,41.4,0
,0.58,3.2,100,32,25,2650,0,4.6,0,36.6,0
[48],0.41,1.7,15,20,32,2330,2600,4.4,0.7,50.8,0
,0.41,1.7,60,20,32,2330,2600,4.4,0.7,42.4,0
,0.41,1.7,45,20,32,2370,2600,4,0.7,54.4,0
,0.41,1.7,30,20,20,2390,2600,3.6,0.7,53.5,0
,0.41,1.7,15,20,20,2320,2600,4.6,0.7,50.5,0
,0.41,1.7,60,20,20,2320,2600,4.6,0.7,40,0
,0.41,1.7,45,20,20,2390,2600,3.7,0.7,49.5,0
,0.41,1.7,30,20,20,2390,2600,3.5,0.7,46.9,0
,0.41,1.7,15,20,20,2380,2600,3.8,0.7,55.3,0
,0.41,1.7,60,20,20,2380,2600,3.8,0.7,48,0
,0.41,1.7,45,20,20,2380,2600,3.8,0.7,50.3,0
,0.41,1.7,30,20,20,2400,2600,3.5,0.7,53.7,0
,0.41,1.7,15,20,20,2370,2600,4,0.7,52.9,0
,0.41,1.7,60,20,20,2370,2600,4,0.7,46,0
,0.48,4.9,64,25,20,2250,2570,7,1.2,45.6,4.9
[50],0.5,2.4,100,25,32,2452,0,4.1,0,51,0
,0.5,2.6,0,25,32,2452,2652,4.1,0.8,52,0
,0.5,2.5,50,25,32,2452,2652,4.1,0.8,51,0
,0.5,2.5,25,25,25,2452,2652,4.1,0.8,49,0
,0.28,2,100,25,38,2260,0,7.5,0,32.9,5.9
,0.34,2.4,100,25,38,2260,0,7.5,0,31.3,5.7
,0.58,3.1,0,25,25,0,2630,0,1.2,28.8,5.9
,0.35,3.1,100,25,25,2260,0,7.5,0,21.6,4.7
,0.49,3.5,100,25,25,2260,0,7.5,0,18,4.8
,0.59,4.2,100,25,25,2260,0,7.5,0,16.1,5.2
[52],0.6,3.6,0,20,20,0,2540,0,1.8,38,0
,0.57,3.3,50,20,20,2320,2540,5.3,1.8,44,0
,0.45,2.5,20,20,20,2320,2540,5.3,1.8,50.5,0
,0.67,3.6,0,20,19,0,2540,0,1.8,37,0
,0.7,2.3,100,20,19,2320,0,5.3,0,32,0
,0.53,2.2,50,20,19,2320,2540,5.3,1.8,41,0
,0.52,3.2,20,20,20,2320,2540,5.3,1.8,44,0
,0.42,2.7,0,20,20,0,2540,0,1.8,58,0
,0.49,2.5,100,20,20,2320,0,5.3,0,40,0
,0.52,2.6,50,20,19,2330,2590,6.1,1.2,35.5,0
,0.51,2.3,100,20,19,2320,0,5.8,0,36.7,0
,0.42,2.6,50,20,20,2360,2590,3.9,1.2,45.1,0
,0.52,2.6,50,20,20,2360,2590,3.9,1.2,39.5,0
,0.43,2.6,50,20,20,2350,2590,4.5,1.2,41,0
,0.52,2.6,50,20,20,2350,2590,4.5,1.2,35.4,0
,0.42,2.6,50,20,20,2350,2590,4.7,1.2,45.4,0
,0.52,2.6,50,20,20,2350,2590,4.7,1.2,36.8,0
,0.38,2.6,33,32,20,2578,2820,9.3,0.4,42.4,0
,0.31,2.6,100,32,20,2578,0,9.3,0,38.9,0
,0.47,3.6,50,20,25,2315,2610,3.6,1,45.3,0
[56],0.29,2.9,0,10,10,0,2680,0,2.1,102.1,6.5
,0.29,2.7,100,10,10,2470,0,3.7,0,108.5,6.8
,0.29,2.6,100,10,10,2390,0,4.9,0,100.8,6.3
,0.29,2.5,100,10,10,2300,0,5.9,0,91.2,6.5
,0.65,4.8,50,20,30,2380,2680,6.94,1.53,14.6,1.9
,0.72,5.9,20,20,20,2380,2680,6.94,1.53,26.8,2.7
,0.45,2.3,20,16,20,2380,2680,6.94,1.53,49.3,2.8
,0.6,3.4,20,16,20,2380,2680,6.9,1.9,42.9,4.7
,0.5,2.7,0,16,20,0,2680,0,1.9,50.2,5.1
,0.5,2.4,100,16,20,2380,0,6.9,0,50.3,5.3
,0.5,3.4,50,22,22,2380,2670,0,0,46.4,0
,0.49,2.1,25,19,10,2500,2810,6.6,0.4,32.6,3.3
[62],0.68,3.8,0,20,20,0,2600,0,0.9,34.5,0
,0.68,3.4,100,20,20,2360,0,7.8,0,27.7,0
,0.51,3,100,20,20,2370,0,7.1,0,42,0
,0.44,2.4,100,20,20,2450,0,3.1,0,60,0
,0.34,2.2,0,20,20,0,2600,0,0.9,80.8,0
,0.34,2,100,20,20,2360,0,7.8,0,65.4,0
,0.5,3,60,19,19,2570,2730,2.7,0.3,30.4,0
,0.65,3.2,20,20,19,2300,2500,5.2,1.7,39.5,0
,0.65,3.1,0,20,19,0,2500,0,1.7,40.5,0
,0.65,3.2,100,20,19,2300,0,5.5,0,39.9,0
,0.39,2.2,37,25,25,2200,2570,5.4,1.1,31.7,9
,0.65,3.4,0,22,20,0,2537,0,1.3,38.7,0
,0.66,3.4,100,22,20,2387,0,6.9,0,35.7,0
,0.65,3.5,100,22,20,2455,0,6.4,0,36.1,0
,0.63,3.6,0,22,20,0,2665,0,1,42.4,0
,0.63,3.5,100,22,20,2484,0,5.4,0,41.1,0
,0.64,3.4,100,22,22,2458,0,5.8,0,39.7,0
,0.77,3.1,100,19,20,2268,0,4.9,0,27.5,0
,0.59,3.3,20,19,19,2320,2730,5.3,0.5,49.3,0
,0.46,2.6,0,19,19,0,2730,0,0.5,62,0
,0.42,2.3,100,19,19,2320,0,5.3,0,65.1,0
,0.67,3,50,19,19,2320,2730,5.3,0.5,63.5,0
,0.53,2.5,20,19,19,2320,2730,5.3,0.5,54.9,0
,0.51,3.1,0,19,19,0,2730,0,0.5,60.1,0
,0.58,2.8,100,19,19,2320,0,5.3,0,43.1,0
,0.44,2.7,50,19,19,2320,2730,5.3,0.5,61.2,0
,0.49,2.5,100,19,19,2320,0,5.3,0,53.7,0